ADSL creation started at: 1770085532 


    >50 18 - 50 
    305       1 
# A tibble: 6 × 3
  USUBJID     TRTSDTM             TRTSTMF
  <chr>       <dttm>              <chr>  
1 01-701-1015 2014-01-02 00:00:00 Y      
2 01-701-1023 2012-08-05 00:00:00 Y      
3 01-701-1028 2013-07-19 00:00:00 Y      
4 01-701-1033 2014-03-18 00:00:00 Y      
5 01-701-1034 2014-07-01 00:00:00 Y      
6 01-701-1047 2013-02-12 00:00:00 Y      

  N   Y 
 52 254 
tibble [306 × 16] (S3: tbl_df/tbl/data.frame)
 $ STUDYID : chr [1:306] "CDISCPILOT01" "CDISCPILOT01" "CDISCPILOT01" "CDISCPILOT01" ...
  ..- attr(*, "label")= chr "Study Identifier"
 $ USUBJID : chr [1:306] "01-701-1015" "01-701-1023" "01-701-1028" "01-701-1033" ...
  ..- attr(*, "label")= chr "Unique Subject Identifier"
 $ SUBJID  : chr [1:306] "1015" "1023" "1028" "1033" ...
  ..- attr(*, "label")= chr "Subject Identifier for the Study"
 $ SITEID  : chr [1:306] "701" "701" "701" "701" ...
  ..- attr(*, "label")= chr "Study Site Identifier"
 $ AGE     : num [1:306] 63 64 71 74 77 85 59 68 81 84 ...
  ..- attr(*, "label")= chr "Age"
 $ SEX     : chr [1:306] "F" "M" "M" "M" ...
  ..- attr(*, "label")= chr "Sex"
 $ ARM     : chr [1:306] "Placebo" "Placebo" "Xanomeline High Dose" "Xanomeline Low Dose" ...
  ..- attr(*, "label")= chr "Description of Planned Arm"
 $ ARMCD   : chr [1:306] "Pbo" "Pbo" "Xan_Hi" "Xan_Lo" ...
  ..- attr(*, "label")= chr "Planned Arm Code"
 $ RACE    : chr [1:306] "WHITE" "WHITE" "WHITE" "WHITE" ...
  ..- attr(*, "label")= chr "Race"
 $ COUNTRY : chr [1:306] "USA" "USA" "USA" "USA" ...
  ..- attr(*, "label")= chr "Country"
 $ AGEGR9  : chr [1:306] ">50" ">50" ">50" ">50" ...
 $ AGEGR9N : num [1:306] 3 3 3 3 3 3 3 3 3 3 ...
 $ TRTSDTM : POSIXct[1:306], format: "2014-01-02" "2012-08-05" "2013-07-19" ...
 $ TRTSTMF : chr [1:306] "Y" "Y" "Y" "Y" ...
 $ ITTFL   : chr [1:306] "Y" "Y" "Y" "Y" ...
 $ LSTAVLDT: Date[1:306], format: "2014-07-02" "2013-02-18" "2014-01-14" ...
 - attr(*, "label")= chr "Demographics"

ADSL creation completed successfully at: 1770085532 
